{
  "resourceType": "Bundle",
  "type": "transaction",
  "entry": [
    {
      "fullUrl": "urn:uuid:patient-arf-002",
      "resource": {
        "resourceType": "Patient",
        "id": "patient-arf-002",
        "identifier": [
          {
            "system": "http://lucidreview.dev/patient-id",
            "value": "patient-arf-002"
          },
          {
            "system": "http://hl7.org/fhir/sid/us-medicare",
            "value": "1EG4-TE5-MK72"
          }
        ],
        "name": [
          {
            "use": "official",
            "family": "Doe",
            "given": ["John"]
          }
        ],
        "gender": "male",
        "birthDate": "1958-03-15",
        "address": [
          {
            "use": "home",
            "line": ["123 Main Street"],
            "city": "Springfield",
            "state": "IL",
            "postalCode": "62704"
          }
        ],
        "telecom": [
          {
            "system": "phone",
            "value": "555-123-4567",
            "use": "home"
          }
        ]
      },
      "request": {
        "method": "PUT",
        "url": "Patient/patient-arf-002"
      }
    },
    {
      "fullUrl": "urn:uuid:coverage-arf-002",
      "resource": {
        "resourceType": "Coverage",
        "id": "coverage-arf-002",
        "status": "active",
        "type": {
          "coding": [
            {
              "system": "http://terminology.hl7.org/CodeSystem/v3-ActCode",
              "code": "MEDICARE",
              "display": "Medicare Coverage"
            }
          ]
        },
        "subscriber": {
          "reference": "Patient/patient-arf-002"
        },
        "beneficiary": {
          "reference": "Patient/patient-arf-002"
        },
        "relationship": {
          "coding": [
            {
              "system": "http://terminology.hl7.org/CodeSystem/subscriber-relationship",
              "code": "self"
            }
          ]
        },
        "period": {
          "start": "2025-01-01",
          "end": "2026-12-31"
        },
        "payor": [
          {
            "display": "Centers for Medicare & Medicaid Services"
          }
        ],
        "class": [
          {
            "type": {
              "coding": [
                {
                  "system": "http://terminology.hl7.org/CodeSystem/coverage-class",
                  "code": "plan"
                }
              ]
            },
            "value": "Medicare Part A",
            "name": "Medicare Part A - Hospital Insurance"
          }
        ]
      },
      "request": {
        "method": "PUT",
        "url": "Coverage/coverage-arf-002"
      }
    },
    {
      "fullUrl": "urn:uuid:condition-arf-002",
      "resource": {
        "resourceType": "Condition",
        "id": "condition-arf-002",
        "clinicalStatus": {
          "coding": [
            {
              "system": "http://terminology.hl7.org/CodeSystem/condition-clinical",
              "code": "active",
              "display": "Active"
            }
          ]
        },
        "verificationStatus": {
          "coding": [
            {
              "system": "http://terminology.hl7.org/CodeSystem/condition-ver-status",
              "code": "confirmed",
              "display": "Confirmed"
            }
          ]
        },
        "category": [
          {
            "coding": [
              {
                "system": "http://terminology.hl7.org/CodeSystem/condition-category",
                "code": "encounter-diagnosis",
                "display": "Encounter Diagnosis"
              }
            ]
          }
        ],
        "code": {
          "coding": [
            {
              "system": "http://hl7.org/fhir/sid/icd-10-cm",
              "code": "J96.00",
              "display": "Acute respiratory failure, unspecified whether with hypoxia or hypercapnia"
            }
          ],
          "text": "Acute respiratory failure"
        },
        "subject": {
          "reference": "Patient/patient-arf-002"
        },
        "onsetDateTime": "2026-02-20T06:30:00Z",
        "recordedDate": "2026-02-20T08:00:00Z"
      },
      "request": {
        "method": "PUT",
        "url": "Condition/condition-arf-002"
      }
    },
    {
      "fullUrl": "urn:uuid:observation-rr-002",
      "resource": {
        "resourceType": "Observation",
        "id": "observation-rr-002",
        "status": "final",
        "category": [
          {
            "coding": [
              {
                "system": "http://terminology.hl7.org/CodeSystem/observation-category",
                "code": "vital-signs",
                "display": "Vital Signs"
              }
            ]
          }
        ],
        "code": {
          "coding": [
            {
              "system": "http://loinc.org",
              "code": "9279-1",
              "display": "Respiratory rate"
            }
          ],
          "text": "Respiratory Rate"
        },
        "subject": {
          "reference": "Patient/patient-arf-002"
        },
        "effectiveDateTime": "2026-02-20T08:15:00Z",
        "valueQuantity": {
          "value": 28,
          "unit": "/min",
          "system": "http://unitsofmeasure.org",
          "code": "/min"
        },
        "interpretation": [
          {
            "coding": [
              {
                "system": "http://terminology.hl7.org/CodeSystem/v3-ObservationInterpretation",
                "code": "H",
                "display": "High"
              }
            ]
          }
        ]
      },
      "request": {
        "method": "PUT",
        "url": "Observation/observation-rr-002"
      }
    },
    {
      "fullUrl": "urn:uuid:servicerequest-arf-002",
      "resource": {
        "resourceType": "ServiceRequest",
        "id": "servicerequest-arf-002",
        "status": "active",
        "intent": "order",
        "category": [
          {
            "coding": [
              {
                "system": "http://terminology.hl7.org/CodeSystem/v3-ActCode",
                "code": "INP",
                "display": "Inpatient"
              }
            ]
          }
        ],
        "code": {
          "coding": [
            {
              "system": "http://terminology.hl7.org/CodeSystem/v3-ActCode",
              "code": "INP",
              "display": "Inpatient Admission"
            }
          ],
          "text": "Inpatient Admission for Acute Respiratory Failure"
        },
        "subject": {
          "reference": "Patient/patient-arf-002"
        },
        "authoredOn": "2026-02-20T08:45:00Z",
        "requester": {
          "display": "Dr. Emergency Physician, MD"
        },
        "reasonCode": [
          {
            "coding": [
              {
                "system": "http://hl7.org/fhir/sid/icd-10-cm",
                "code": "J96.00",
                "display": "Acute respiratory failure, unspecified"
              }
            ]
          }
        ],
        "insurance": [
          {
            "reference": "Coverage/coverage-arf-002"
          }
        ]
      },
      "request": {
        "method": "PUT",
        "url": "ServiceRequest/servicerequest-arf-002"
      }
    },
    {
      "fullUrl": "urn:uuid:binary-ednote-002",
      "resource": {
        "resourceType": "Binary",
        "id": "binary-ednote-002",
        "contentType": "text/plain",
        "data": ""
      },
      "request": {
        "method": "PUT",
        "url": "Binary/binary-ednote-002"
      }
    },
    {
      "fullUrl": "urn:uuid:docref-ednote-002",
      "resource": {
        "resourceType": "DocumentReference",
        "id": "docref-ednote-002",
        "status": "current",
        "type": {
          "coding": [
            {
              "system": "http://loinc.org",
              "code": "34878-9",
              "display": "Emergency medicine Note"
            }
          ],
          "text": "ED Physician Note"
        },
        "subject": {
          "reference": "Patient/patient-arf-002"
        },
        "date": "2026-02-20T09:00:00Z",
        "author": [
          {
            "display": "Dr. Emergency Physician, MD"
          }
        ],
        "description": "Emergency Department Physician Note - Acute Respiratory Failure (No SpO2/pO2 data)",
        "content": [
          {
            "attachment": {
              "contentType": "text/plain",
              "url": "Binary/binary-ednote-002",
              "title": "ED Physician Note"
            }
          }
        ],
        "context": {
          "encounter": [
            {
              "display": "ED Visit 2026-02-20"
            }
          ],
          "period": {
            "start": "2026-02-20T06:30:00Z",
            "end": "2026-02-20T09:00:00Z"
          }
        }
      },
      "request": {
        "method": "PUT",
        "url": "DocumentReference/docref-ednote-002"
      }
    }
  ]
}
